Folder: Data_plotter/DemoDataAndTemplate/CV

Note: README.md
# A data plot GUI using pyplot. It's under development.

File: CV_V2O5_EC-DMC.mpt
EC-Lab ASCII FILE
Nb header lines : 59

Cyclic Voltammetry

Run on channel : 2 (SN 41453)
User :
CE vs. WE compliance from -10 V to 10 V
Electrode connection : standard
Potential control : Ewe
Ewe ctrl range : min = 0.00 V, max = 5.00 V
Safety Limits :
	Do not start on E overload
Acquisition started on : 11/16/2021 15:32:10.281
Technique started on : 11/16/2021 15:32:10.281
Loaded Setting File :  NONE
Saved on :
	File : 11142021-Li-EC-DMC-LiPF6-V2O5_CV_0_1mV_C02.mpr
	Directory : C:\Users\nsk0248\Documents\EC-Lab\Data\Shoukang\11142021-Li-V2O5_CV\
	Host : 127.0.0.1
Device : VMP3 (SN 1452)
Address : USB
EC-Lab for windows v11.42 (software)
Internet server v11.40 (firmware)
Command interpretor v11.40 (firmware)
Electrode material : Au/Pd
Initial state :
Electrolyte : NaCl (0.2M)
Comments : Fe(CN)63-/Fe(CN)64- 5.10-3 M
Reference electrode : SCE Saturated Calomel Electrode (0.241 V)
Electrode surface area : 0.001 cm²
Characteristic mass : 0.001 g
Equivalent Weight : 0.000 g/eq.
Density : 0.000 g/cm3
Volume (V) : 0.001 cm³
Cycle Definition : Charge/Discharge alternance
Ei (V)              2.600
vs.                 Ref
dE/dt               0.100
dE/dt unit          mV/s
E1 (V)              4.000
vs.                 Ref
Step percent        50
N                   10
E range min (V)     0.000
E range max (V)     5.000
I Range             Auto
I Range min         Unset
I Range max         Unset
I Range init        Unset
Bandwidth           5
E2 (V)              2.600
vs.                 Ref
nc cycles           3
Reverse Scan        0
Ef (V)              2.600
vs.                 Eoc

mode	ox/red	error	control changes	counter inc.	time/s	control/V	Ewe/V	<I>/mA	cycle number	(Q-Qo)/C	I Range	P/W
2	0	0	0	0	0.000000000000000E+000	2.60003	2.59942	-0.06759	1	0.0000000E+000	12	-0.000175695
2	0	0	1	0	835.284	2.68356	2.68298	-0.000568495	1	-0.00192649	14	-1.52526e-06
2	0	0	1	0	1675.07	2.76753	2.76694	-0.000167775	1	-0.00219743	14	-4.64225e-07
2	0	0	1	0	2514.85	2.85151	2.8509	-1.13882e-05	1	-0.00225975	14	-3.24667e-08
2	1	0	1	0	3354.63	2.93549	2.93491	7.56903e-05	1	-0.00222479	14	2.22145e-07
2	1	0	1	0	4194.42	3.01947	3.01889	0.000140372	1	-0.00212841	14	4.23767e-07
2	1	0	1	0	5034.2	3.10345	3.10291	0.00021695	1	-0.00197572	14	6.73176e-07
2	1	0	1	0	5873.98	3.18742	3.18689	0.00035151	1	-0.00173826	14	1.12022e-06
2	1	0	1	0	6713.77	3.2714	3.27088	0.000440807	1	-0.00138285	14	1.44183e-06
2	1	0	1	0	7553.55	3.35538	3.35488	0.000476111	1	-0.000991944	14	1.5973e-06
2	1	0	1	0	8393.33	3.43936	3.43886	0.000507906	1	-0.000574557	14	1.74661e-06
2	1	0	1	0	9233.12	3.52334	3.52286	0.000550923	1	-0.000129266	14	1.94082e-06
2	1	0	1	0	10072.9	3.60731	3.60684	0.000630817	1	0.000369801	14	2.27525e-06
2	1	0	1	0	10912.7	3.69129	3.69081	0.000741863	1	0.000948038	14	2.73808e-06
2	1	0	1	0	11752.5	3.77527	3.77485	0.000857641	1	0.00162382	14	3.23747e-06
2	1	0	1	0	12592.2	3.85925	3.85884	0.000961201	1	0.00238993	14	3.70912e-06
2	1	0	1	0	13432	3.94323	3.94276	0.00113202	1	0.00326776	14	4.46327e-06
2	1	0	1	0	14254.8	3.97442	3.97401	0.00104828	1	0.00424944	14	4.16587e-06
2	1	0	1	0	15094.6	3.89044	3.89	0.000661434	1	0.00493751	14	2.57298e-06
2	1	0	1	0	15934.4	3.80646	3.80604	0.000462203	1	0.00540064	14	1.75916e-06
2	1	0	1	0	16774.1	3.72249	3.72201	0.000297448	1	0.00571501	14	1.10711e-06
2	1	0	1	0	17613.9	3.63851	3.63799	0.000168463	1	0.00590541	14	6.12866e-07
2	1	0	1	0	18453.7	3.55453	3.554	4.74218e-05	1	0.00599285	14	1.68537e-07
2	0	0	1	0	19293.5	3.47055	3.47009	-6.44156e-05	1	0.00598098	14	-2.23528e-07
2	0	0	1	0	20133.2	3.38657	3.38607	-0.000252348	1	0.00585527	14	-8.54467e-07
2	0	0	1	0	20973	3.30259	3.30206	-0.000392904	1	0.00557259	14	-1.29739e-06
2	0	0	1	0	21812.8	3.21862	3.21807	-0.000564153	1	0.00517314	14	-1.81548e-06
2	0	0	1	0	22652.5	3.13464	3.13413	-0.000749468	1	0.00458871	14	-2.34893e-06
2	0	0	1	0	23492.3	3.05066	3.05012	-0.00069988	1	0.00396314	14	-2.13471e-06
2	0	0	1	0	24332.1	2.96668	2.96614	-0.000645161	1	0.0033959	14	-1.91364e-06
2	0	0	1	0	25171.9	2.8827	2.88213	-0.000640777	1	0.00285148	14	-1.8468e-06
2	0	0	1	0	26011.6	2.79873	2.79817	-0.000679396	1	0.00229306	14	-1.90107e-06
2	0	0	1	0	26851.4	2.71475	2.71419	-0.00074067	1	0.00169033	14	-2.01032e-06
2	0	0	1	0	27691.2	2.63077	2.63017	-0.000832272	1	0.00102608	14	-2.18901e-06
2	0	0	1	1	28514	2.65156	2.65101	-0.000108705	2	0.000598197	14	-2.88178e-07
2	1	0	1	1	29353.8	2.73554	2.73499	8.05687e-05	2	0.000611019	14	2.20355e-07
2	1	0	1	1	30193.5	2.81952	2.81898	0.000145847	2	0.000715654	14	4.11139e-07
2	1	0	1	1	31033.3	2.9035	2.90292	0.000181263	2	0.000860039	14	5.26192e-07
2	1	0	1	1	31873.1	2.98748	2.98695	0.000207528	2	0.00102952	14	6.19876e-07
2	1	0	1	1	32712.9	3.07145	3.07091	0.000238296	2	0.00122189	14	7.31784e-07
2	1	0	1	1	33552.7	3.15543	3.15486	0.000303696	2	0.00145505	14	9.58117e-07
2	1	0	1	1	34392.5	3.23941	3.23885	0.000398624	2	0.00177264	14	1.29108e-06
2	1	0	1	1	35232.2	3.32339	3.32285	0.00036954	2	0.002098	14	1.22793e-06
2	1	0	1	1	36072	3.40737	3.40687	0.000400748	2	0.00242056	14	1.3653e-06
2	1	0	1	1	36911.8	3.49135	3.49087	0.000406106	2	0.0027667	14	1.41766e-06
2	1	0	1	1	37751.6	3.57532	3.57485	0.000438211	2	0.0031242	14	1.56654e-06
2	1	0	1	1	38591.4	3.6593	3.65885	0.000493189	2	0.00351825	14	1.8045e-06
2	1	0	1	1	39431.2	3.74328	3.74284	0.000564497	2	0.00396677	14	2.11282e-06
2	1	0	1	1	40270.9	3.82726	3.82682	0.000627886	2	0.00447276	14	2.40281e-06
2	1	0	1	1	41110.7	3.91124	3.91079	0.000679961	2	0.00502498	14	2.65918e-06
2	1	0	1	1	41950.5	3.99521	3.99481	0.000734235	2	0.00562232	14	2.93313e-06
2	1	0	1	1	42773.3	3.92243	3.922	0.000345887	2	0.006039	14	1.35657e-06
2	1	0	1	1	43613.1	3.83846	3.83797	0.000191668	2	0.00625349	14	7.35617e-07
2	1	0	1	1	44452.8	3.75448	3.75403	0.000101504	2	0.00637111	14	3.8105e-07
2	1	0	1	1	45292.6	3.6705	3.67002	2.40292e-05	2	0.0064197	14	8.81878e-08
2	0	0	1	1	46132.4	3.58652	3.58604	-4.01715e-05	2	0.00640632	14	-1.44056e-07
2	0	0	1	1	46972.2	3.50254	3.50203	-9.48527e-05	2	0.00634596	14	-3.32177e-07
2	0	0	1	1	47811.9	3.41856	3.41802	-0.000189967	2	0.00622657	14	-6.49313e-07
2	0	0	1	1	48651.7	3.33459	3.33403	-0.000343079	2	0.00598458	14	-1.14384e-06
2	0	0	1	1	49491.5	3.25061	3.25007	-0.000486767	2	0.00563255	14	-1.58202e-06
2	0	0	1	1	50331.2	3.16663	3.16604	-0.000764959	2	0.00509665	14	-2.42189e-06
2	0	0	1	1	51171	3.08265	3.08209	-0.000706811	2	0.00443596	14	-2.17845e-06
2	0	0	1	1	52010.8	2.99867	2.9981	-0.000580387	2	0.00389833	14	-1.74006e-06
2	0	0	1	1	52850.6	2.9147	2.91417	-0.00055459	2	0.00341783	14	-1.61617e-06
2	0	0	1	1	53690.3	2.83072	2.83017	-0.00056246	2	0.0029432	14	-1.59186e-06
2	0	0	1	1	54530.1	2.74674	2.74615	-0.000591671	2	0.00245254	14	-1.62482e-06
2	0	0	1	1	55369.9	2.66276	2.66218	-0.000654905	2	0.00192366	14	-1.74347e-06
2	0	0	1	0	56192.7	2.61957	2.61899	-0.000187243	3	0.00141787	14	-4.90387e-07
2	1	0	1	0	57032.5	2.70355	2.70295	0.000120179	3	0.00144221	14	3.24837e-07
2	1	0	1	0	57872.2	2.78753	2.78699	0.000184736	3	0.00158112	14	5.14857e-07
2	1	0	1	0	58712	2.87151	2.87091	0.000215502	3	0.00175681	14	6.18687e-07
2	1	0	1	0	59551.8	2.95548	2.95494	0.000236141	3	0.00195353	14	6.97783e-07
2	1	0	1	0	60391.6	3.03946	3.03891	0.000257226	3	0.0021671	14	7.81685e-07
2	1	0	1	0	61231.4	3.12344	3.12293	0.000298116	3	0.00240521	14	9.30996e-07
2	1	0	1	0	62071.2	3.20742	3.2069	0.000444199	3	0.00270674	14	1.4245e-06
2	1	0	1	0	62910.9	3.2914	3.29087	0.000404314	3	0.00307614	14	1.33055e-06
2	1	0	1	0	63750.7	3.37538	3.37486	0.000393488	3	0.00341367	14	1.32796e-06
2	1	0	1	0	64590.5	3.45935	3.45885	0.000407059	3	0.00376684	14	1.40796e-06
2	1	0	1	0	65430.3	3.54333	3.54287	0.000408646	3	0.00411234	14	1.44778e-06
2	1	0	1	0	66270.1	3.62731	3.62678	0.000441787	3	0.00447321	14	1.60226e-06
2	1	0	1	0	67109.9	3.71129	3.71082	0.000490193	3	0.00486898	14	1.81902e-06
2	1	0	1	0	67949.6	3.79527	3.79482	0.00052539	3	0.00530121	14	1.99376e-06
2	1	0	1	0	68789.4	3.87924	3.8788	0.000556783	3	0.00575958	14	2.15965e-06
2	1	0	1	0	69629.2	3.96322	3.96278	0.000592532	3	0.00624571	14	2.34807e-06
2	1	0	1	0	70452	3.95443	3.95399	0.000371136	3	0.00667988	14	1.46747e-06
2	1	0	1	0	71291.8	3.87045	3.87006	0.000201853	3	0.00690539	14	7.81183e-07
2	1	0	1	0	72131.5	3.78647	3.78604	0.000116614	3	0.00703295	14	4.41506e-07
2	1	0	1	0	72971.3	3.70249	3.70208	4.95112e-05	3	0.00709854	14	1.83294e-07
2	0	0	1	0	73811.1	3.61851	3.61805	-1.56736e-05	3	0.00710753	14	-5.67078e-08
2	0	0	1	0	74650.8	3.53453	3.53409	-7.12591e-05	3	0.00706608	14	-2.51836e-07
2	0	0	1	0	75490.6	3.45056	3.45004	-0.000143791	3	0.00697223	14	-4.96085e-07
2	0	0	1	0	76330.4	3.36658	3.36604	-0.000313295	3	0.00677291	14	-1.05456e-06
2	0	0	1	0	77170.2	3.2826	3.28206	-0.000457932	3	0.00644474	14	-1.50296e-06
2	0	0	1	0	78009.9	3.19862	3.19804	-0.000750747	3	0.0059548	14	-2.40092e-06
2	0	0	1	0	78849.7	3.11464	3.11413	-0.00084502	3	0.00521816	14	-2.6315e-06
2	0	0	1	0	79689.5	3.03067	3.0301	-0.000612576	3	0.00461853	14	-1.85617e-06
2	0	0	1	0	80529.3	2.94669	2.94615	-0.000562539	3	0.00412094	14	-1.65733e-06
2	0	0	1	0	81369	2.86271	2.86213	-0.000534093	3	0.00365373	14	-1.52865e-06
2	0	0	1	0	82208.8	2.77873	2.77819	-0.000543561	3	0.00319571	14	-1.51011e-06
2	0	0	1	0	83048.6	2.69475	2.69416	-0.000589019	3	0.00271384	14	-1.58691e-06
2	0	0	1	0	83888.4	2.61077	2.61019	-0.000673757	3	0.00218181	14	-1.75863e-06
2	1	0	1	1	84711.1	2.67156	2.67097	0.000103089	4	0.00206774	14	2.75347e-07
2	1	0	1	1	85550.9	2.75554	2.75496	0.000190523	4	0.0022057	14	5.24884e-07
2	1	0	1	1	86390.7	2.83952	2.83895	0.000227648	4	0.00239014	14	6.46282e-07
2	1	0	1	1	87230.5	2.92349	2.92292	0.00025621	4	0.00260052	14	7.48882e-07
2	1	0	1	1	88070.3	3.00747	3.00694	0.000278286	4	0.00283233	14	8.36788e-07
2	1	0	1	1	88910.1	3.09145	3.09095	0.000313351	4	0.0030867	14	9.68554e-07
2	1	0	1	1	89749.8	3.17543	3.17487	0.000412528	4	0.00339154	14	1.30972e-06
2	1	0	1	1	90589.6	3.25941	3.25888	0.000508827	4	0.00382608	14	1.65821e-06
2	1	0	1	1	91429.4	3.34338	3.34286	0.000446651	4	0.00423108	14	1.49309e-06
2	1	0	1	1	92269.2	3.42736	3.42685	0.00045749	4	0.00461504	14	1.56775e-06
2	1	0	1	1	93109	3.51134	3.51084	0.000410739	4	0.00497935	14	1.44204e-06
2	1	0	1	1	93948.8	3.59532	3.5948	0.000420465	4	0.00533154	14	1.51149e-06
2	1	0	1	1	94788.5	3.6793	3.67886	0.000444062	4	0.00569831	14	1.63364e-06
2	1	0	1	1	95628.3	3.76327	3.76278	0.000466922	4	0.00608724	14	1.75692e-06
2	1	0	1	1	96468.1	3.84725	3.84681	0.000483869	4	0.00649059	14	1.86135e-06
2	1	0	1	1	97307.9	3.93123	3.93079	0.000513524	4	0.00691239	14	2.01856e-06
2	1	0	1	1	98130.7	3.98642	3.98599	0.000449023	4	0.00734518	14	1.7898e-06
2	1	0	1	1	98970.4	3.90244	3.902	0.000220815	4	0.00760258	14	8.61617e-07
2	1	0	1	1	99810.2	3.81846	3.81806	0.000130508	4	0.00774316	14	4.98286e-07
2	1	0	1	1	100650	3.73448	3.73404	6.67073e-05	4	0.00782138	14	2.49087e-07
2	1	0	1	1	101490	3.6505	3.65009	2.30015e-06	4	0.00784614	14	8.39574e-09
2	0	0	1	1	102330	3.56653	3.56608	-5.54295e-05	4	0.00781828	14	-1.97666e-07
2	0	0	1	1	103169	3.48255	3.48204	-0.000118287	4	0.00774049	14	-4.11879e-07
2	0	0	1	1	104009	3.39857	3.39804	-0.000285334	4	0.00758548	14	-9.69577e-07
2	0	0	1	1	104849	3.31459	3.31406	-0.000431143	4	0.00727884	14	-1.42884e-06
2	0	0	1	1	105689	3.23061	3.23009	-0.000654152	4	0.0068233	14	-2.11297e-06
2	0	0	1	1	106528	3.14664	3.14614	-0.00102258	4	0.00608725	14	-3.21717e-06
2	0	0	1	1	107368	3.06266	3.06209	-0.000702937	4	0.00535574	14	-2.15245e-06
2	0	0	1	1	108208	2.97868	2.97816	-0.000581841	4	0.0048151	14	-1.73282e-06
2	0	0	1	1	109048	2.8947	2.89415	-0.000528104	4	0.00434346	14	-1.52841e-06
2	0	0	1	1	109887	2.81072	2.81017	-0.000516026	4	0.00390003	14	-1.45012e-06
2	0	0	1	1	110727	2.72674	2.72615	-0.000547716	4	0.00344737	14	-1.49316e-06
2	0	0	1	1	111567	2.64277	2.6422	-0.000613231	4	0.00295444	14	-1.62028e-06
2	0	0	1	1	111994	2.60003	2.59942	-0.00066702	4	0.00267769	14	-1.73386e-06