Folder: Data_plotter/data_process

Note: README.md
# A data plot GUI using pyplot. It's under development.

File: testdoc.mpt
EC-Lab ASCII FILE
Nb header lines : 73

Galvanostatic Cycling with Potential Limitation

Run on channel : 5 (SN 22353)
User :
CE vs. WE compliance from -10 V to 10 V
Electrode connection : standard
Ewe ctrl range : min = 0.00 V, max = 5.00 V
Safety Limits :
	Do not start on E overload
Acquisition started on : 02/07/2020 15:28:42
Technique started on : 02/07/2020 15:28:42
Saved on :
	File : LPE-0-LiFePO4_8_55 mg_1 M LiPF6_EC-DEC_0_5C-SKH-02072020_3_C05.mpr
	Directory : C:\Users\electrochem2\Desktop\Research\Shoukang\02072020\
	Host : 192.168.0.3
Device : MPG-2 (SN 0147)
Address : 192.168.0.1
EC-Lab for windows v11.16 (software)
Internet server v11.16 (firmware)
Command interpretor v11.16 (firmware)
Electrode material :
Initial state :
Electrolyte :
Comments :
Mass of active material : 0.001 mg
 at x = 0.000
Molecular weight of active material (at x = 0) : 0.001 g/mol
Atomic weight of intercalated ion : 0.001 g/mol
Acquisition started at : xo = 0.000
Number of e- transfered per intercalated ion : 1
for DX = 1, DQ = 26.802 mA.h
Battery capacity : 0.000 A.h
Electrode surface area : 0.001 cm?
Characteristic mass : 0.001 g
Cycle Definition : Charge/Discharge alternance
Ns                  0                   1                   2
Set I/C             I                   I                   I
Is                  0.000               0.543               -0.543
unit Is             mA                  mA                  mA
vs.                 <None>              <None>              <None>
N                   1.00                1.00                1.00
I sign              > 0                 > 0                 > 0
t1 (h:m:s)          0:00:0.0000         1000:00:0.0000      1000:00:0.0000
I Range             1 mA                1 mA                1 mA
Bandwidth           4                   4                   4
dE1 (mV)            0.00                0.00                0.00
dt1 (s)             0.0000              10.0000             10.0000
EM (V)              0.000               4.000               2.400
tM (h:m:s)          0:00:0.0000         0:00:0.0000         0:00:0.0000
Im                  0.000               0.000               0.000
unit Im             mA                  mA                  mA
dI/dt               0.000               0.000               0.000
dunit dI/dt         mA/s                mA/s                mA/s
E range min (V)     0.000               0.000               0.000
E range max (V)     5.000               5.000               5.000
dq                  0.000               0.000               0.000
unit dq             mA.h                mA.h                mA.h
dtq (s)             0.0000              0.0000              0.0000
dQM                 0.000               0.000               0.000
unit dQM            mA.h                mA.h                mA.h
dxM                 0.000               0.000               0.000
tR (h:m:s)          12:00:0.0000        0:00:0.0000         0:00:0.0000
dER/dt (mV/h)       0.0                 0.1                 0.1
dER (mV)            0.00                0.00                0.00
dtR (s)             10.0000             1.0000              1.0000
EL (V)              pass                2.400               4.000
goto Ns'            0                   0                   1
nc cycles           0                   0                   1000

mode	ox/red	error	control changes	Ns changes	counter inc.	Ns	time/s	dq/mA.h	(Q-Qo)/mA.h	control/V/mA	Ewe/V	Q charge/discharge/mA.h	half cycle	Energy charge/W.h	Energy discharge/W.h	Capacitance charge/µF	Capacitance discharge/µF	<I>/mA	x	Q discharge/mA.h	Q charge/mA.h	Capacity/mA.h	Efficiency/%	control/V	control/mA	cycle number	P/W
3	1	0	0	0	0	0	0.0002	0.000000000000000E+000	0.000000000000000E+000	0.0000000E+000	0.840673	0.000000000000000E+000	0	0.000000000000000E+000	0.000000000000000E+000	0.000000000000000E+000	0.000000000000000E+000	0.000000000000000E+000	0.000000000000000E+000	0.000000000000000E+000	0.000000000000000E+000	0.000000000000000E+000	0	0	0	0.000000000000000E+000	0.0000000E+000
3	1	0	0	0	0	0	10.0002	0.000000000000000E+000	0.000000000000000E+000	0.0000000E+000	0.840864	0.000000000000000E+000	0	0.000000000000000E+000	0.000000000000000E+000	0.000000000000000E+000	0.000000000000000E+000	0.000000000000000E+000	0.000000000000000E+000	0.000000000000000E+000	0.000000000000000E+000	0.000000000000000E+000	0	0	0	0.000000000000000E+000	0.0000000E+000
3	1	0	0	0	0	0	20.0002	0.000000000000000E+000	0.000000000000000E+000	0.0000000E+000	0.841322	0.000000000000000E+000	0	0.000000000000000E+000	0.000000000000000E+000	0.000000000000000E+000	0.000000000000000E+000	0.000000000000000E+000	0.000000000000000E+000	0.000000000000000E+000	0.000000000000000E+000	0.000000000000000E+000	0	0	0	0.000000000000000E+000	0.0000000E+000
3	1	0	0	0	0	0	30.0002	0.000000000000000E+000	0.000000000000000E+000	0.0000000E+000	0.841799	0.000000000000000E+000	0	0.000000000000000E+000	0.000000000000000E+000	0.000000000000000E+000	0.000000000000000E+000	0.000000000000000E+000	0.000000000000000E+000	0.000000000000000E+000	0.000000000000000E+000	0.000000000000000E+000	0	0	0	0.000000000000000E+000	0.0000000E+000
3	1	0	0	0	0	0	40.0002	0.000000000000000E+000	0.000000000000000E+000	0.0000000E+000	0.84199	0.000000000000000E+000	0	0.000000000000000E+000	0.000000000000000E+000	0.000000000000000E+000	0.000000000000000E+000	0.000000000000000E+000	0.000000000000000E+000	0.000000000000000E+000	0.000000000000000E+000	0.000000000000000E+000	0	0	0	0.000000000000000E+000	0.0000000E+000
3	1	0	0	0	0	0	50.0002	0.000000000000000E+000	0.000000000000000E+000	0.0000000E+000	0.842562	0.000000000000000E+000	0	0.000000000000000E+000	0.000000000000000E+000	0.000000000000000E+000	0.000000000000000E+000	0.000000000000000E+000	0.000000000000000E+000	0.000000000000000E+000	0.000000000000000E+000	0.000000000000000E+000	0	0	0	0.000000000000000E+000	0.0000000E+000
3	1	0	0	0	0	0	60.0002	0.000000000000000E+000	0.000000000000000E+000	0.0000000E+000	0.842811	0.000000000000000E+000	0	0.000000000000000E+000	0.000000000000000E+000	0.000000000000000E+000	0.000000000000000E+000	0.000000000000000E+000	0.000000000000000E+000	0.000000000000000E+000	0.000000000000000E+000	0.000000000000000E+000	0	0	0	0.000000000000000E+000	0.0000000E+000
3	1	0	0	0	0	0	70.0002	0.000000000000000E+000	0.000000000000000E+000	0.0000000E+000	0.84323	0.000000000000000E+000	0	0.000000000000000E+000	0.000000000000000E+000	0.000000000000000E+000	0.000000000000000E+000	0.000000000000000E+000	0.000000000000000E+000	0.000000000000000E+000	0.000000000000000E+000	0.000000000000000E+000	0	0	0	0.000000000000000E+000	0.0000000E+000
3	1	0	0	0	0	0	80.0002	0.000000000000000E+000	0.000000000000000E+000	0.0000000E+000	0.843669	0.000000000000000E+000	0	0.000000000000000E+000	0.000000000000000E+000	0.000000000000000E+000	0.000000000000000E+000	0.000000000000000E+000	0.000000000000000E+000	0.000000000000000E+000	0.000000000000000E+000	0.000000000000000E+000	0	0	0	0.000000000000000E+000	0.0000000E+000
3	1	0	0	0	0	0	90.0002	0.000000000000000E+000	0.000000000000000E+000	0.0000000E+000	0.844089	0.000000000000000E+000	0	0.000000000000000E+000	0.000000000000000E+000	0.000000000000000E+000	0.000000000000000E+000	0.000000000000000E+000	0.000000000000000E+000	0.000000000000000E+000	0.000000000000000E+000	0.000000000000000E+000	0	0	0	0.000000000000000E+000	0.0000000E+000
3	1	0	0	0	0	0	100	0.000000000000000E+000	0.000000000000000E+000	0.0000000E+000	0.844471	0.000000000000000E+000	0	0.000000000000000E+000	0.000000000000000E+000	0.000000000000000E+000	0.000000000000000E+000	0.000000000000000E+000	0.000000000000000E+000	0.000000000000000E+000	0.000000000000000E+000	0.000000000000000E+000	0	0	0	0.000000000000000E+000	0.0000000E+000
3	1	0	0	0	0	0	110	0.000000000000000E+000	0.000000000000000E+000	0.0000000E+000	0.844872	0.000000000000000E+000	0	0.000000000000000E+000	0.000000000000000E+000	0.000000000000000E+000	0.000000000000000E+000	0.000000000000000E+000	0.000000000000000E+000	0.000000000000000E+000	0.000000000000000E+000	0.000000000000000E+000	0	0	0	0.000000000000000E+000	0.0000000E+000
3	1	0	0	0	0	0	120	0.000000000000000E+000	0.000000000000000E+000	0.0000000E+000	0.845196	0.000000000000000E+000	0	0.000000000000000E+000	0.000000000000000E+000	0.000000000000000E+000	0.000000000000000E+000	0.000000000000000E+000	0.000000000000000E+000	0.000000000000000E+000	0.000000000000000E+000	0.000000000000000E+000	0	0	0	0.000000000000000E+000	0.0000000E+000
3	1	0	0	0	0	0	130	0.000000000000000E+000	0.000000000000000E+000	0.0000000E+000	0.845635	0.000000000000000E+000	0	0.000000000000000E+000	0.000000000000000E+000	0.000000000000000E+000	0.000000000000000E+000	0.000000000000000E+000	0.000000000000000E+000	0.000000000000000E+000	0.000000000000000E+000	0.000000000000000E+000	0	0	0	0.000000000000000E+000	0.0000000E+000
3	1	0	0	0	0	0	140	0.000000000000000E+000	0.000000000000000E+000	0.0000000E+000	0.845941	0.000000000000000E+000	0	0.000000000000000E+000	0.000000000000000E+000	0.000000000000000E+000	0.000000000000000E+000	0.000000000000000E+000	0.000000000000000E+000	0.000000000000000E+000	0.000000000000000E+000	0.000000000000000E+000	0	0	0	0.000000000000000E+000	0.0000000E+000
3	1	0	0	0	0	0	150	0.000000000000000E+000	0.000000000000000E+000	0.0000000E+000	0.84617	0.000000000000000E+000	0	0.000000000000000E+000	0.000000000000000E+000	0.000000000000000E+000	0.000000000000000E+000	0.000000000000000E+000	0.000000000000000E+000	0.000000000000000E+000	0.000000000000000E+000	0.000000000000000E+000	0	0	0	0.000000000000000E+000	0.0000000E+000
3	1	0	0	0	0	0	160	0.000000000000000E+000	0.000000000000000E+000	0.0000000E+000	0.846723	0.000000000000000E+000	0	0.000000000000000E+000	0.000000000000000E+000	0.000000000000000E+000	0.000000000000000E+000	0.000000000000000E+000	0.000000000000000E+000	0.000000000000000E+000	0.000000000000000E+000	0.000000000000000E+000	0	0	0	0.000000000000000E+000	0.0000000E+000
3	1	0	0	0	0	0	170	0.000000000000000E+000	0.000000000000000E+000	0.0000000E+000	0.846971	0.000000000000000E+000	0	0.000000000000000E+000	0.000000000000000E+000	0.000000000000000E+000	0.000000000000000E+000	0.000000000000000E+000	0.000000000000000E+000	0.000000000000000E+000	0.000000000000000E+000	0.000000000000000E+000	0	0	0	0.000000000000000E+000	0.0000000E+000